<?xml version="1.0" encoding="utf-8"?>
<Bundle xmlns="http://hl7.org/fhir">
  <id value="1"/>
  <type value="document"/>
  <entry>
    <fullUrl value="urn:uuid:12fc8ae7-cca8-44cc-b1c3-3114f29728e1"/>
    <resource>
      <Composition>
        <meta>
          <profile value="http://nightingaleproject.github.io/fhirDeathRecord/StructureDefinition/sdr-deathRecord-DeathRecordContents"/>
        </meta>
        <status value="final"/>
        <type>
          <coding>
            <system value="http://loinc.org"/>
            <code value="64297-5"/>
            <display value="Death certificate"/>
          </coding>
        </type>
        <subject>
          <reference value="urn:uuid:bb172379-a381-4169-958a-ad3429e92d4b"/>
        </subject>
        <date value="2018-05-10"/>
        <author>
          <reference value="urn:uuid:b466a0e5-90c6-461a-a51b-75cde476fcea"/>
        </author>
        <title value="Record of Death"/>
        <section>
          <code>
            <coding>
              <system value="http://loinc.org"/>
              <code value="69453-9"/>
              <display value="Cause of death"/>
            </coding>
          </code>
          <entry>
            <reference value="urn:uuid:f50b65ec-447f-4759-8d4e-019ad168563a"/>
          </entry>
          <entry>
            <reference value="urn:uuid:aa577434-ff78-4ec8-a60e-096fdc68afea"/>
          </entry>
          <entry>
            <reference value="urn:uuid:22698672-d72e-44d6-a7f4-ed32549b0cf6"/>
          </entry>
          <entry>
            <reference value="urn:uuid:a7823c3c-9004-46e3-a5a9-ea9fde38b719"/>
          </entry>
          <entry>
            <reference value="urn:uuid:957a3b99-3177-40a1-8f89-1c356a3c8d4b"/>
          </entry>
          <entry>
            <reference value="urn:uuid:3eecbfac-5c5a-46d2-88d6-cfb5538d8d2c"/>
          </entry>
          <entry>
            <reference value="urn:uuid:c30ff89c-264e-4162-a8c5-e767f03437ad"/>
          </entry>
          <entry>
            <reference value="urn:uuid:713b9cb2-7b38-43bf-b166-4f960dc9aa45"/>
          </entry>
          <entry>
            <reference value="urn:uuid:b604ba4b-6f0a-446e-b829-5d733d58a90a"/>
          </entry>
          <entry>
            <reference value="urn:uuid:a4d130d8-6cce-4e21-ac4a-9782d4326329"/>
          </entry>
          <entry>
            <reference value="urn:uuid:3fba3c0e-5736-4bc8-a73d-4f0bf3b59a5c"/>
          </entry>
          <entry>
            <reference value="urn:uuid:0f7683d4-79e0-47f0-8ff9-d5d1b3396fa5"/>
          </entry>
          <entry>
            <reference value="urn:uuid:084b3564-e415-488e-b4a3-6a46a6ee2977"/>
          </entry>
          <entry>
            <reference value="urn:uuid:2b23bd43-1262-4837-871d-e54e237e6792"/>
          </entry>
          <entry>
            <reference value="urn:uuid:9d85c672-bb72-411f-8bf3-4fb58cc7197b"/>
          </entry>
        </section>
      </Composition>
    </resource>
  </entry>
  <entry>
    <fullUrl value="urn:uuid:bb172379-a381-4169-958a-ad3429e92d4b"/>
    <resource>
      <Patient>
        <meta>
          <profile value="http://nightingaleproject.github.io/fhirDeathRecord/StructureDefinition/sdr-decedent-Decedent"/>
          <profile value="http://hl7.org/fhir/us/core/StructureDefinition/us-core-patient"/>
        </meta>
        <extension url="http://hl7.org/fhir/us/core/StructureDefinition/us-core-race">
          <extension url="ombCategory">
            <valueCoding>
              <code value="2106-3"/>
            </valueCoding>
          </extension>
          <extension url="ombCategory">
            <valueCoding>
              <code value="2076-8"/>
            </valueCoding>
          </extension>
          <extension url="ombCategory">
            <valueCoding>
              <code value="2028-5"/>
            </valueCoding>
          </extension>
          <extension url="ombCategory">
            <valueCoding>
              <code value="1002-5"/>
            </valueCoding>
          </extension>
          <extension url="ombCategory">
            <valueCoding>
              <code value="2054-5"/>
            </valueCoding>
          </extension>
          <extension url="text">
            <valueString value="White"/>
          </extension>
          <extension url="text">
            <valueString value="Native Hawaiian or Other Pacific Islander"/>
          </extension>
          <extension url="text">
            <valueString value="Asian"/>
          </extension>
          <extension url="text">
            <valueString value="American Indian or Alaskan Native"/>
          </extension>
          <extension url="text">
            <valueString value="Black or African American"/>
          </extension>
        </extension>
        <extension url="http://hl7.org/fhir/us/core/StructureDefinition/us-core-ethnicity">
          <valueCodeableConcept>
            <coding>
              <system value="http://hl7.org/fhir/v3/Ethnicity"/>
              <code value="2186-5"/>
              <display value="Non Hispanic or Latino"/>
            </coding>
          </valueCodeableConcept>
        </extension>
        <extension url="http://hl7.org/fhir/us/core/StructureDefinition/us-core-birthsex">
          <valueCode value="M"/>
        </extension>
        <extension url="http://nightingaleproject.github.io/fhirDeathRecord/StructureDefinition/sdr-decedent-Age-extension">
          <valueUnsignedInt value="48"/>
        </extension>
        <extension url="http://nightingaleproject.github.io/fhirDeathRecord/StructureDefinition/sdr-decedent-Birthplace-extension">
          <valueAddress>
            <type value="postal"/>
            <line value="Boston Massachusetts"/>
            <city value="Boston"/>
            <state value="Massachusetts"/>
            <country value="United States"/>
          </valueAddress>
        </extension>
        <extension url="http://nightingaleproject.github.io/fhirDeathRecord/StructureDefinition/sdr-decedent-ServedInArmedForces-extension">
          <valueBoolean value="false"/>
        </extension>
        <extension url="http://nightingaleproject.github.io/fhirDeathRecord/StructureDefinition/sdr-decedent-MaritalStatusAtDeath-extension">
          <valueCodeableConcept>
            <coding>
              <system value="http://hl7.org/fhir/v3/MaritalStatus"/>
              <code value="S"/>
            </coding>
          </valueCodeableConcept>
        </extension>
        <extension url="http://nightingaleproject.github.io/fhirDeathRecord/StructureDefinition/sdr-decedent-PlaceOfDeath-extension">
          <extension url="http://nightingaleproject.github.io/fhirDeathRecord/StructureDefinition/shr-core-PostalAddress-extension">
            <valueAddress>
              <type value="postal"/>
              <line value="5 Example St."/>
              <line value="Boston Massachusetts 02101"/>
              <city value="Boston"/>
              <state value="Massachusetts"/>
              <postalCode value="02101"/>
              <country value="United States"/>
            </valueAddress>
          </extension>
          <extension url="http://nightingaleproject.github.io/fhirDeathRecord/StructureDefinition/sdr-decedent-FacilityName-extension">
            <valueString value="Example Hospital"/>
          </extension>
          <extension url="http://nightingaleproject.github.io/fhirDeathRecord/StructureDefinition/sdr-decedent-PlaceOfDeathType-extension">
            <valueCodeableConcept>
              <coding>
                <code value="16983000"/>
              </coding>
            </valueCodeableConcept>
          </extension>
        </extension>
        <extension url="http://nightingaleproject.github.io/fhirDeathRecord/StructureDefinition/sdr-decedent-Disposition-extension">
          <extension url="http://nightingaleproject.github.io/fhirDeathRecord/StructureDefinition/sdr-decedent-DispositionType-extension">
            <valueCodeableConcept>
              <coding>
                <code value="449971000124106"/>
              </coding>
            </valueCodeableConcept>
          </extension>
          <extension url="http://nightingaleproject.github.io/fhirDeathRecord/StructureDefinition/sdr-decedent-DispositionFacility-extension">
            <extension url="http://nightingaleproject.github.io/fhirDeathRecord/StructureDefinition/sdr-decedent-FacilityName-extension">
              <valueString value="Example Cemetery"/>
            </extension>
            <extension url="http://nightingaleproject.github.io/fhirDeathRecord/StructureDefinition/shr-core-PostalAddress-extension">
              <valueAddress>
                <type value="postal"/>
                <line value="Boston Massachusetts"/>
                <city value="Boston"/>
                <state value="Massachusetts"/>
                <country value="United States"/>
              </valueAddress>
            </extension>
          </extension>
          <extension url="http://nightingaleproject.github.io/fhirDeathRecord/StructureDefinition/sdr-decedent-FuneralFacility-extension">
            <extension url="http://nightingaleproject.github.io/fhirDeathRecord/StructureDefinition/sdr-decedent-FacilityName-extension">
              <valueString value="Example Funeral Home"/>
            </extension>
            <extension url="http://nightingaleproject.github.io/fhirDeathRecord/StructureDefinition/shr-core-PostalAddress-extension">
              <valueAddress>
                <type value="postal"/>
                <line value="2 Example Street"/>
                <line value="Boston Massachusetts 02101"/>
                <city value="Boston"/>
                <state value="Massachusetts"/>
                <postalCode value="02101"/>
                <country value="United States"/>
              </valueAddress>
            </extension>
          </extension>
        </extension>
        <extension url="http://nightingaleproject.github.io/fhirDeathRecord/StructureDefinition/sdr-decedent-Education-extension">
          <valueCodeableConcept>
            <coding>
              <code value="PHC1454"/>
            </coding>
          </valueCodeableConcept>
        </extension>
        <extension url="http://nightingaleproject.github.io/fhirDeathRecord/StructureDefinition/sdr-decedent-Occupation-extension">
          <extension url="http://nightingaleproject.github.io/fhirDeathRecord/StructureDefinition/sdr-decedent-Job-extension">
            <valueString value="Example usual occupation."/>
          </extension>
          <extension url="http://nightingaleproject.github.io/fhirDeathRecord/StructureDefinition/sdr-decedent-Industry-extension">
            <valueString value="Example kind of business."/>
          </extension>
        </extension>
        <extension url="http://hl7.org/fhir/StructureDefinition/patient-mothersMaidenName">
          <valueString value="Maiden"/>
        </extension>
        <identifier>
          <system value="http://hl7.org/fhir/sid/us-ssn"/>
          <value value="111223333"/>
        </identifier>
        <name>
          <use value="official"/>
          <family value="Person"/>
          <given value="Example"/>
          <given value="Middle"/>
        </name>
        <gender value="male"/>
        <birthDate value="1970-04-24"/>
        <deceasedDateTime value="2018-04-24T00:00:00+00:00"/>
        <address>
          <line value="1 Example Street"/>
          <city value="Boston"/>
          <state value="Massachusetts"/>
          <postalCode value="02101"/>
        </address>
      </Patient>
    </resource>
  </entry>
  <entry>
    <fullUrl value="urn:uuid:b466a0e5-90c6-461a-a51b-75cde476fcea"/>
    <resource>
      <Practitioner>
        <meta>
          <profile value="http://nightingaleproject.github.io/fhirDeathRecord/StructureDefinition/sdr-deathRecord-Certifier"/>
          <profile value="http://hl7.org/fhir/us/core/StructureDefinition/us-core-practitioner"/>
        </meta>
        <extension url="http://nightingaleproject.github.io/fhirDeathRecord/StructureDefinition/sdr-deathRecord-CertifierType-extension">
          <valueCodeableConcept>
            <coding>
              <system value="http://snomed.info/sct"/>
              <code value="434651000124107"/>
              <display value="Physician (Pronouncer and Certifier)"/>
            </coding>
          </valueCodeableConcept>
        </extension>
        <identifier>
          <use value="official"/>
          <system value="https://github.com/nightingaleproject/nightingale"/>
          <value value=""/>
        </identifier>
        <name>
          <family value="Doctor"/>
          <given value="Example"/>
          <given value="Middle"/>
        </name>
        <address>
          <line value="100 Example St."/>
          <city value="Bedford"/>
          <state value="Massachusetts"/>
          <postalCode value="01730"/>
        </address>
        <qualification>
          <code>
            <coding>
              <system value="http://hl7.org/fhir/v2/0360/2.7"/>
              <code value="MD"/>
              <display value="Doctor of Medicine"/>
            </coding>
          </code>
        </qualification>
      </Practitioner>
    </resource>
  </entry>
  <entry>
    <fullUrl value="urn:uuid:f50b65ec-447f-4759-8d4e-019ad168563a"/>
    <resource>
      <Condition>
        <meta>
          <profile value="http://nightingaleproject.github.io/fhirDeathRecord/StructureDefinition/sdr-causeOfDeath-CauseOfDeathCondition"/>
        </meta>
        <text>
          <status value="additional"/>
          <div xmlns="http://www.w3.org/1999/xhtml">Example Immediate COD</div>
        </text>
        <clinicalStatus value="active"/>
        <subject>
          <reference value="urn:uuid:bb172379-a381-4169-958a-ad3429e92d4b"/>
        </subject>
        <onsetString value="minutes"/>
      </Condition>
    </resource>
  </entry>
  <entry>
    <fullUrl value="urn:uuid:aa577434-ff78-4ec8-a60e-096fdc68afea"/>
    <resource>
      <Condition>
        <meta>
          <profile value="http://nightingaleproject.github.io/fhirDeathRecord/StructureDefinition/sdr-causeOfDeath-CauseOfDeathCondition"/>
        </meta>
        <text>
          <status value="additional"/>
          <div xmlns="http://www.w3.org/1999/xhtml">Example Underlying COD 1</div>
        </text>
        <clinicalStatus value="active"/>
        <subject>
          <reference value="urn:uuid:bb172379-a381-4169-958a-ad3429e92d4b"/>
        </subject>
        <onsetString value="2 hours"/>
      </Condition>
    </resource>
  </entry>
  <entry>
    <fullUrl value="urn:uuid:22698672-d72e-44d6-a7f4-ed32549b0cf6"/>
    <resource>
      <Condition>
        <meta>
          <profile value="http://nightingaleproject.github.io/fhirDeathRecord/StructureDefinition/sdr-causeOfDeath-CauseOfDeathCondition"/>
        </meta>
        <text>
          <status value="additional"/>
          <div xmlns="http://www.w3.org/1999/xhtml">Example Underlying COD 2</div>
        </text>
        <clinicalStatus value="active"/>
        <subject>
          <reference value="urn:uuid:bb172379-a381-4169-958a-ad3429e92d4b"/>
        </subject>
        <onsetString value="6 months"/>
      </Condition>
    </resource>
  </entry>
  <entry>
    <fullUrl value="urn:uuid:a7823c3c-9004-46e3-a5a9-ea9fde38b719"/>
    <resource>
      <Condition>
        <meta>
          <profile value="http://nightingaleproject.github.io/fhirDeathRecord/StructureDefinition/sdr-causeOfDeath-CauseOfDeathCondition"/>
        </meta>
        <text>
          <status value="additional"/>
          <div xmlns="http://www.w3.org/1999/xhtml">Example Underlying COD 3</div>
        </text>
        <clinicalStatus value="active"/>
        <subject>
          <reference value="urn:uuid:bb172379-a381-4169-958a-ad3429e92d4b"/>
        </subject>
        <onsetString value="15 years"/>
      </Condition>
    </resource>
  </entry>
  <entry>
    <fullUrl value="urn:uuid:957a3b99-3177-40a1-8f89-1c356a3c8d4b"/>
    <resource>
      <Observation>
        <meta>
          <profile value="http://nightingaleproject.github.io/fhirDeathRecord/StructureDefinition/sdr-causeOfDeath-ActualOrPresumedDateOfDeath"/>
        </meta>
        <status value="final"/>
        <code>
          <coding>
            <system value="http://loinc.org"/>
            <code value="81956-5"/>
            <display value="Date and time of death"/>
          </coding>
        </code>
        <subject>
          <reference value="urn:uuid:bb172379-a381-4169-958a-ad3429e92d4b"/>
        </subject>
        <valueDateTime value="2018-04-24T00:00:00+00:00"/>
      </Observation>
    </resource>
  </entry>
  <entry>
    <fullUrl value="urn:uuid:3eecbfac-5c5a-46d2-88d6-cfb5538d8d2c"/>
    <resource>
      <Observation>
        <meta>
          <profile value="http://nightingaleproject.github.io/fhirDeathRecord/StructureDefinition/sdr-causeOfDeath-AutopsyPerformed"/>
        </meta>
        <status value="final"/>
        <code>
          <coding>
            <system value="http://loinc.org"/>
            <code value="85699-7"/>
            <display value="Autopsy was performed"/>
          </coding>
        </code>
        <subject>
          <reference value="urn:uuid:bb172379-a381-4169-958a-ad3429e92d4b"/>
        </subject>
        <valueBoolean value="false"/>
      </Observation>
    </resource>
  </entry>
  <entry>
    <fullUrl value="urn:uuid:c30ff89c-264e-4162-a8c5-e767f03437ad"/>
    <resource>
      <Observation>
        <meta>
          <profile value="http://nightingaleproject.github.io/fhirDeathRecord/StructureDefinition/sdr-causeOfDeath-AutopsyResultsAvailable"/>
        </meta>
        <status value="final"/>
        <code>
          <coding>
            <system value="http://loinc.org"/>
            <code value="69436-4"/>
            <display value="Autopsy results available"/>
          </coding>
        </code>
        <subject>
          <reference value="urn:uuid:bb172379-a381-4169-958a-ad3429e92d4b"/>
        </subject>
        <valueBoolean value="false"/>
      </Observation>
    </resource>
  </entry>
  <entry>
    <fullUrl value="urn:uuid:713b9cb2-7b38-43bf-b166-4f960dc9aa45"/>
    <resource>
      <Observation>
        <meta>
          <profile value="http://nightingaleproject.github.io/fhirDeathRecord/StructureDefinition/sdr-causeOfDeath-DatePronouncedDead"/>
        </meta>
        <status value="final"/>
        <code>
          <coding>
            <system value="http://loinc.org"/>
            <code value="80616-6"/>
            <display value="Date and time pronounced dead"/>
          </coding>
        </code>
        <subject>
          <reference value="urn:uuid:bb172379-a381-4169-958a-ad3429e92d4b"/>
        </subject>
        <valueDateTime value="2018-04-24T00:00:00+00:00"/>
      </Observation>
    </resource>
  </entry>
  <entry>
    <fullUrl value="urn:uuid:b604ba4b-6f0a-446e-b829-5d733d58a90a"/>
    <resource>
      <Observation>
        <meta>
          <profile value="http://nightingaleproject.github.io/fhirDeathRecord/StructureDefinition/sdr-causeOfDeath-DeathFromWorkInjury"/>
        </meta>
        <status value="final"/>
        <code>
          <coding>
            <system value="http://loinc.org"/>
            <code value="69444-8"/>
            <display value="Did death result from injury at work"/>
          </coding>
        </code>
        <subject>
          <reference value="urn:uuid:bb172379-a381-4169-958a-ad3429e92d4b"/>
        </subject>
        <valueBoolean value="false"/>
      </Observation>
    </resource>
  </entry>
  <entry>
    <fullUrl value="urn:uuid:a4d130d8-6cce-4e21-ac4a-9782d4326329"/>
    <resource>
      <Observation>
        <meta>
          <profile value="http://nightingaleproject.github.io/fhirDeathRecord/StructureDefinition/sdr-causeOfDeath-DeathFromTransportInjury"/>
        </meta>
        <status value="final"/>
        <code>
          <coding>
            <system value="http://loinc.org"/>
            <code value="69448-9"/>
            <display value="Injury leading to death associated with transportation event"/>
          </coding>
        </code>
        <subject>
          <reference value="urn:uuid:bb172379-a381-4169-958a-ad3429e92d4b"/>
        </subject>
        <valueCodeableConcept>
          <coding>
            <system value="http://hl7.org/fhir/v3/NullFlavor"/>
            <code value="OTH"/>
            <display value="Other"/>
          </coding>
        </valueCodeableConcept>
      </Observation>
    </resource>
  </entry>
  <entry>
    <fullUrl value="urn:uuid:3fba3c0e-5736-4bc8-a73d-4f0bf3b59a5c"/>
    <resource>
      <Observation>
        <meta>
          <profile value="http://nightingaleproject.github.io/fhirDeathRecord/StructureDefinition/sdr-causeOfDeath-DetailsOfInjury"/>
        </meta>
        <extension url="http://nightingaleproject.github.io/fhirDeathRecord/StructureDefinition/sdr-causeOfDeath-PlaceOfInjury-extension">
          <valueString value="Example details of injury"/>
        </extension>
        <extension url="http://nightingaleproject.github.io/fhirDeathRecord/StructureDefinition/shr-core-PostalAddress-extension">
          <valueAddress>
            <type value="postal"/>
            <line value="7 Example Street"/>
            <line value="Bedford Massachusetts 01730"/>
            <city value="Bedford"/>
            <state value="Massachusetts"/>
            <postalCode value="01730"/>
            <country value="United States"/>
          </valueAddress>
        </extension>
        <status value="final"/>
        <code>
          <coding>
            <system value="http://loinc.org"/>
            <code value="11374-6"/>
            <display value="Injury incident description"/>
          </coding>
        </code>
        <subject>
          <reference value="urn:uuid:bb172379-a381-4169-958a-ad3429e92d4b"/>
        </subject>
        <effectiveDateTime value="2018-04-19T15:43:00+00:00"/>
        <valueString value="Example details of injury"/>
      </Observation>
    </resource>
  </entry>
  <entry>
    <fullUrl value="urn:uuid:0f7683d4-79e0-47f0-8ff9-d5d1b3396fa5"/>
    <resource>
      <Observation>
        <meta>
          <profile value="http://nightingaleproject.github.io/fhirDeathRecord/StructureDefinition/sdr-causeOfDeath-MannerOfDeath"/>
        </meta>
        <status value="final"/>
        <code>
          <coding>
            <system value="http://loinc.org"/>
            <code value="69449-7"/>
            <display value="Manner of death"/>
          </coding>
        </code>
        <subject>
          <reference value="urn:uuid:bb172379-a381-4169-958a-ad3429e92d4b"/>
        </subject>
        <valueCodeableConcept>
          <coding>
            <system value="http://snomed.info/sct"/>
            <code value="7878000"/>
            <display value="Accident"/>
          </coding>
        </valueCodeableConcept>
      </Observation>
    </resource>
  </entry>
  <entry>
    <fullUrl value="urn:uuid:084b3564-e415-488e-b4a3-6a46a6ee2977"/>
    <resource>
      <Observation>
        <meta>
          <profile value="http://nightingaleproject.github.io/fhirDeathRecord/StructureDefinition/sdr-causeOfDeath-MedicalExaminerContacted"/>
        </meta>
        <status value="final"/>
        <code>
          <coding>
            <system value="http://loinc.org"/>
            <code value="74497-9"/>
            <display value="Medical examiner or coroner was contacted"/>
          </coding>
        </code>
        <subject>
          <reference value="urn:uuid:bb172379-a381-4169-958a-ad3429e92d4b"/>
        </subject>
        <valueBoolean value="false"/>
      </Observation>
    </resource>
  </entry>
  <entry>
    <fullUrl value="urn:uuid:2b23bd43-1262-4837-871d-e54e237e6792"/>
    <resource>
      <Observation>
        <meta>
          <profile value="http://nightingaleproject.github.io/fhirDeathRecord/StructureDefinition/sdr-causeOfDeath-TimingOfRecentPregnancyInRelationToDeath"/>
        </meta>
        <status value="final"/>
        <code>
          <coding>
            <system value="http://loinc.org"/>
            <code value="69442-2"/>
            <display value="Timing of recent pregnancy in relation to death"/>
          </coding>
        </code>
        <subject>
          <reference value="urn:uuid:bb172379-a381-4169-958a-ad3429e92d4b"/>
        </subject>
        <valueCodeableConcept>
          <coding>
            <code value="PHC1260"/>
            <display value="Not pregnant within past year"/>
          </coding>
        </valueCodeableConcept>
      </Observation>
    </resource>
  </entry>
  <entry>
    <fullUrl value="urn:uuid:9d85c672-bb72-411f-8bf3-4fb58cc7197b"/>
    <resource>
      <Observation>
        <meta>
          <profile value="http://nightingaleproject.github.io/fhirDeathRecord/StructureDefinition/sdr-causeOfDeath-TobaccoUseContributedToDeath"/>
        </meta>
        <status value="final"/>
        <code>
          <coding>
            <system value="http://loinc.org"/>
            <code value="69443-0"/>
            <display value="Did tobacco use contribute to death"/>
          </coding>
        </code>
        <subject>
          <reference value="urn:uuid:bb172379-a381-4169-958a-ad3429e92d4b"/>
        </subject>
        <valueCodeableConcept>
          <coding>
            <system value="http://snomed.info/sct"/>
            <code value="373067005"/>
            <display value="No"/>
          </coding>
        </valueCodeableConcept>
      </Observation>
    </resource>
  </entry>
</Bundle>
