<?xml version="1.0" encoding="utf-8"?>
<Bundle xmlns="http://hl7.org/fhir">
  <id value="1"/>
  <type value="document"/>
  <entry>
    <Composition>
      <meta>
        <profile value="http://nightingaleproject.github.io/fhirDeathRecord/StructureDefinition/sdr-deathRecord-DeathRecordContents"/>
      </meta>
      <status value="final"/>
      <type>
        <coding>
          <system value="http://loinc.org"/>
          <code value="64297-5"/>
          <display value="Death certificate"/>
        </coding>
      </type>
      <subject>
        <reference value="urn:uuid:10437797-9efc-4dce-85f2-6913f058981a"/>
      </subject>
      <date value="2018-05-01"/>
      <author>
        <reference value="urn:uuid:c12a95ba-b0c1-41f0-9ab3-61afe45c51ca"/>
      </author>
      <title value="Record of Death"/>
      <section>
        <code>
          <coding>
            <system value="http://loinc.org"/>
            <code value="69453-9"/>
            <display value="Cause of death"/>
          </coding>
        </code>
        <entry>
          <reference value="urn:uuid:723d5471-383b-49ba-ad76-a353af307f9f"/>
        </entry>
        <entry>
          <reference value="urn:uuid:e5f995dd-55e1-426c-911f-01120720337a"/>
        </entry>
        <entry>
          <reference value="urn:uuid:ea45e7f1-314e-41a5-9d11-b8a608820165"/>
        </entry>
        <entry>
          <reference value="urn:uuid:eacdb5ce-7df7-4f82-ab21-206d6f184639"/>
        </entry>
        <entry>
          <reference value="urn:uuid:a719f114-eb97-40e3-9c86-40d634817a0a"/>
        </entry>
        <entry>
          <reference value="urn:uuid:e324aed8-6689-442a-88bb-8a72ba92277e"/>
        </entry>
        <entry>
          <reference value="urn:uuid:c5f43bfb-68c8-4664-9d5a-876c216230a4"/>
        </entry>
        <entry>
          <reference value="urn:uuid:2659395a-11e9-4284-993f-d9d2b297ec65"/>
        </entry>
        <entry>
          <reference value="urn:uuid:fb85337b-0f33-4b2f-bedf-19b0c495e520"/>
        </entry>
        <entry>
          <reference value="urn:uuid:c6cff625-bd27-44ca-a0b4-577e443f2a3a"/>
        </entry>
        <entry>
          <reference value="urn:uuid:eb0f3723-a7ed-4752-aa60-2ce498e65833"/>
        </entry>
        <entry>
          <reference value="urn:uuid:78b08b25-a207-498f-b80c-aa22b42187a6"/>
        </entry>
        <entry>
          <reference value="urn:uuid:3de8839e-0fcf-4712-96c8-4c5431d4dc01"/>
        </entry>
        <entry>
          <reference value="urn:uuid:ae7e052b-2a10-4ac6-9682-f6a4d350da5e"/>
        </entry>
        <entry>
          <reference value="urn:uuid:fce13ff7-b1ae-448f-a197-23a3507e2aee"/>
        </entry>
      </section>
    </Composition>
  </entry>
  <entry>
    <fullUrl value="urn:uuid:10437797-9efc-4dce-85f2-6913f058981a"/>
    <resource>
      <Patient>
        <meta>
          <profile value="http://nightingaleproject.github.io/fhirDeathRecord/StructureDefinition/sdr-decedent-Decedent"/>
          <profile value="http://hl7.org/fhir/us/core/StructureDefinition/us-core-patient"/>
        </meta>
        <extension url="http://hl7.org/fhir/us/core/StructureDefinition/us-core-race">
          <extension url="ombCategory">
            <valueCoding>
              <code value="2106-3"/>
            </valueCoding>
          </extension>
          <extension url="ombCategory">
            <valueCoding>
              <code value="2076-8"/>
            </valueCoding>
          </extension>
          <extension url="ombCategory">
            <valueCoding>
              <code value="2028-5"/>
            </valueCoding>
          </extension>
          <extension url="ombCategory">
            <valueCoding>
              <code value="1002-5"/>
            </valueCoding>
          </extension>
          <extension url="ombCategory">
            <valueCoding>
              <code value="2054-5"/>
            </valueCoding>
          </extension>
          <extension url="text">
            <valueString value="White"/>
          </extension>
          <extension url="text">
            <valueString value="Native Hawaiian or Other Pacific Islander"/>
          </extension>
          <extension url="text">
            <valueString value="Asian"/>
          </extension>
          <extension url="text">
            <valueString value="American Indian or Alaskan Native"/>
          </extension>
          <extension url="text">
            <valueString value="Black or African American"/>
          </extension>
        </extension>
        <extension url="http://hl7.org/fhir/us/core/StructureDefinition/us-core-ethnicity">
          <valueCodeableConcept>
            <coding>
              <system value="http://hl7.org/fhir/v3/Ethnicity"/>
              <code value="2186-5"/>
              <display value="Non Hispanic or Latino"/>
            </coding>
          </valueCodeableConcept>
        </extension>
        <extension url="http://hl7.org/fhir/us/core/StructureDefinition/us-core-birthsex">
          <valueCode value="M"/>
        </extension>
        <extension url="http://nightingaleproject.github.io/fhirDeathRecord/StructureDefinition/sdr-decedent-Age-extension">
          <valueUnsignedInt value="48"/>
        </extension>
        <extension url="http://nightingaleproject.github.io/fhirDeathRecord/StructureDefinition/sdr-decedent-Birthplace-extension">
          <valueAddress>
            <type value="postal"/>
            <line value="Boston Massachusetts"/>
            <city value="Boston"/>
            <state value="Massachusetts"/>
            <country value="United States"/>
          </valueAddress>
        </extension>
        <extension url="http://nightingaleproject.github.io/fhirDeathRecord/StructureDefinition/sdr-decedent-ServedInArmedForces-extension">
          <valueBoolean value="false"/>
        </extension>
        <extension url="http://nightingaleproject.github.io/fhirDeathRecord/StructureDefinition/sdr-decedent-MaritalStatusAtDeath-extension">
          <valueCodeableConcept>
            <coding>
              <system value="http://hl7.org/fhir/v3/MaritalStatus"/>
              <code value="S"/>
            </coding>
          </valueCodeableConcept>
        </extension>
        <extension url="http://nightingaleproject.github.io/fhirDeathRecord/StructureDefinition/sdr-decedent-PlaceOfDeath-extension">
          <extension url="http://nightingaleproject.github.io/fhirDeathRecord/StructureDefinition/shr-core-PostalAddress-extension">
            <valueAddress>
              <type value="postal"/>
              <line value="5 Example St."/>
              <line value="Boston Massachusetts 02101"/>
              <city value="Boston"/>
              <state value="Massachusetts"/>
              <postalCode value="02101"/>
              <country value="United States"/>
            </valueAddress>
          </extension>
          <extension url="http://nightingaleproject.github.io/fhirDeathRecord/StructureDefinition/sdr-decedent-FacilityName-extension">
            <valueString value="Example Hospital"/>
          </extension>
          <extension url="http://nightingaleproject.github.io/fhirDeathRecord/StructureDefinition/sdr-decedent-PlaceOfDeathType-extension">
            <valueCodeableConcept>
              <coding>
                <code value="16983000"/>
              </coding>
            </valueCodeableConcept>
          </extension>
        </extension>
        <extension url="http://nightingaleproject.github.io/fhirDeathRecord/StructureDefinition/sdr-decedent-Disposition-extension">
          <extension url="http://nightingaleproject.github.io/fhirDeathRecord/StructureDefinition/sdr-decedent-DispositionType-extension">
            <valueCodeableConcept>
              <coding>
                <code value="449971000124106"/>
              </coding>
            </valueCodeableConcept>
          </extension>
          <extension url="http://nightingaleproject.github.io/fhirDeathRecord/StructureDefinition/sdr-decedent-DispositionFacility-extension">
            <extension url="http://nightingaleproject.github.io/fhirDeathRecord/StructureDefinition/sdr-decedent-FacilityName-extension">
              <valueString value="Example Cemetery"/>
            </extension>
            <extension url="http://nightingaleproject.github.io/fhirDeathRecord/StructureDefinition/shr-core-PostalAddress-extension">
              <valueAddress>
                <type value="postal"/>
                <line value="Boston Massachusetts"/>
                <city value="Boston"/>
                <state value="Massachusetts"/>
                <country value="United States"/>
              </valueAddress>
            </extension>
          </extension>
          <extension url="http://nightingaleproject.github.io/fhirDeathRecord/StructureDefinition/sdr-decedent-FuneralFacility-extension">
            <extension url="http://nightingaleproject.github.io/fhirDeathRecord/StructureDefinition/sdr-decedent-FacilityName-extension">
              <valueString value="Example Funeral Home"/>
            </extension>
            <extension url="http://nightingaleproject.github.io/fhirDeathRecord/StructureDefinition/shr-core-PostalAddress-extension">
              <valueAddress>
                <type value="postal"/>
                <line value="2 Example Street"/>
                <line value="Boston Massachusetts 02101"/>
                <city value="Boston"/>
                <state value="Massachusetts"/>
                <postalCode value="02101"/>
                <country value="United States"/>
              </valueAddress>
            </extension>
          </extension>
        </extension>
        <extension url="http://nightingaleproject.github.io/fhirDeathRecord/StructureDefinition/sdr-decedent-Education-extension">
          <valueCodeableConcept>
            <coding>
              <code value="PHC1454"/>
            </coding>
          </valueCodeableConcept>
        </extension>
        <extension url="http://nightingaleproject.github.io/fhirDeathRecord/StructureDefinition/sdr-decedent-Occupation-extension">
          <extension url="http://nightingaleproject.github.io/fhirDeathRecord/StructureDefinition/sdr-decedent-Job-extension">
            <valueString value="Example usual occupation."/>
          </extension>
          <extension url="http://nightingaleproject.github.io/fhirDeathRecord/StructureDefinition/sdr-decedent-Industry-extension">
            <valueString value="Example kind of business."/>
          </extension>
        </extension>
        <extension url="http://hl7.org/fhir/StructureDefinition/patient-mothersMaidenName">
          <valueString value="Maiden"/>
        </extension>
        <identifier>
          <system value="http://hl7.org/fhir/sid/us-ssn"/>
          <value value="111223333"/>
        </identifier>
        <name>
          <use value="official"/>
          <family value="Person"/>
          <given value="Example"/>
          <given value="Middle"/>
        </name>
        <gender value="male"/>
        <birthDate value="1970-04-24"/>
        <deceasedDateTime value="2018-04-24T00:00:00+00:00"/>
        <address>
          <line value="1 Example Street"/>
          <city value="Boston"/>
          <state value="Massachusetts"/>
          <postalCode value="02101"/>
        </address>
      </Patient>
    </resource>
  </entry>
  <entry>
    <fullUrl value="urn:uuid:c12a95ba-b0c1-41f0-9ab3-61afe45c51ca"/>
    <resource>
      <Practitioner>
        <meta>
          <profile value="http://nightingaleproject.github.io/fhirDeathRecord/StructureDefinition/sdr-deathRecord-Certifier"/>
          <profile value="http://hl7.org/fhir/us/core/StructureDefinition/us-core-practitioner"/>
        </meta>
        <extension url="http://nightingaleproject.github.io/fhirDeathRecord/StructureDefinition/sdr-deathRecord-CertifierType-extension">
          <valueCodeableConcept>
            <coding>
              <system value="http://snomed.info/sct"/>
              <code value="434651000124107"/>
              <display value="Physician (Pronouncer and Certifier)"/>
            </coding>
          </valueCodeableConcept>
        </extension>
        <identifier>
          <use value="official"/>
          <system value="https://github.com/nightingaleproject/nightingale"/>
          <value value=""/>
        </identifier>
        <name>
          <family value="Doctor"/>
          <given value="Example"/>
          <given value="Middle"/>
        </name>
        <address>
          <line value="100 Example St."/>
          <city value="Bedford"/>
          <state value="Massachusetts"/>
          <postalCode value="01730"/>
        </address>
        <qualification>
          <code>
            <coding>
              <system value="http://hl7.org/fhir/v2/0360/2.7"/>
              <code value="MD"/>
              <display value="Doctor of Medicine"/>
            </coding>
          </code>
        </qualification>
      </Practitioner>
    </resource>
  </entry>
  <entry>
    <fullUrl value="urn:uuid:723d5471-383b-49ba-ad76-a353af307f9f"/>
    <resource>
      <Condition>
        <meta>
          <profile value="http://nightingaleproject.github.io/fhirDeathRecord/StructureDefinition/sdr-causeOfDeath-CauseOfDeathCondition"/>
        </meta>
        <text>
          <status value="additional"/>
          <div xmlns="http://www.w3.org/1999/xhtml">Example Immediate COD</div>
        </text>
        <clinicalStatus value="active"/>
        <subject>
          <reference value="urn:uuid:10437797-9efc-4dce-85f2-6913f058981a"/>
        </subject>
        <onsetString value="minutes"/>
      </Condition>
    </resource>
  </entry>
  <entry>
    <fullUrl value="urn:uuid:e5f995dd-55e1-426c-911f-01120720337a"/>
    <resource>
      <Condition>
        <meta>
          <profile value="http://nightingaleproject.github.io/fhirDeathRecord/StructureDefinition/sdr-causeOfDeath-CauseOfDeathCondition"/>
        </meta>
        <text>
          <status value="additional"/>
          <div xmlns="http://www.w3.org/1999/xhtml">Example Underlying COD 1</div>
        </text>
        <clinicalStatus value="active"/>
        <subject>
          <reference value="urn:uuid:10437797-9efc-4dce-85f2-6913f058981a"/>
        </subject>
        <onsetString value="2 hours"/>
      </Condition>
    </resource>
  </entry>
  <entry>
    <fullUrl value="urn:uuid:ea45e7f1-314e-41a5-9d11-b8a608820165"/>
    <resource>
      <Condition>
        <meta>
          <profile value="http://nightingaleproject.github.io/fhirDeathRecord/StructureDefinition/sdr-causeOfDeath-CauseOfDeathCondition"/>
        </meta>
        <text>
          <status value="additional"/>
          <div xmlns="http://www.w3.org/1999/xhtml">Example Underlying COD 2</div>
        </text>
        <clinicalStatus value="active"/>
        <subject>
          <reference value="urn:uuid:10437797-9efc-4dce-85f2-6913f058981a"/>
        </subject>
        <onsetString value="6 months"/>
      </Condition>
    </resource>
  </entry>
  <entry>
    <fullUrl value="urn:uuid:eacdb5ce-7df7-4f82-ab21-206d6f184639"/>
    <resource>
      <Condition>
        <meta>
          <profile value="http://nightingaleproject.github.io/fhirDeathRecord/StructureDefinition/sdr-causeOfDeath-CauseOfDeathCondition"/>
        </meta>
        <text>
          <status value="additional"/>
          <div xmlns="http://www.w3.org/1999/xhtml">Example Underlying COD 3</div>
        </text>
        <clinicalStatus value="active"/>
        <subject>
          <reference value="urn:uuid:10437797-9efc-4dce-85f2-6913f058981a"/>
        </subject>
        <onsetString value="15 years"/>
      </Condition>
    </resource>
  </entry>
  <entry>
    <fullUrl value="urn:uuid:a719f114-eb97-40e3-9c86-40d634817a0a"/>
    <resource>
      <Observation>
        <meta>
          <profile value="http://nightingaleproject.github.io/fhirDeathRecord/StructureDefinition/sdr-causeOfDeath-ActualOrPresumedDateOfDeath"/>
        </meta>
        <status value="final"/>
        <code>
          <coding>
            <system value="http://loinc.org"/>
            <code value="81956-5"/>
            <display value="Date and time of death"/>
          </coding>
        </code>
        <subject>
          <reference value="urn:uuid:10437797-9efc-4dce-85f2-6913f058981a"/>
        </subject>
        <valueDateTime value="2018-04-24T00:00:00+00:00"/>
      </Observation>
    </resource>
  </entry>
  <entry>
    <fullUrl value="urn:uuid:e324aed8-6689-442a-88bb-8a72ba92277e"/>
    <resource>
      <Observation>
        <meta>
          <profile value="http://nightingaleproject.github.io/fhirDeathRecord/StructureDefinition/sdr-causeOfDeath-AutopsyPerformed"/>
        </meta>
        <status value="final"/>
        <code>
          <coding>
            <system value="http://loinc.org"/>
            <code value="85699-7"/>
            <display value="Autopsy was performed"/>
          </coding>
        </code>
        <subject>
          <reference value="urn:uuid:10437797-9efc-4dce-85f2-6913f058981a"/>
        </subject>
        <valueBoolean value="false"/>
      </Observation>
    </resource>
  </entry>
  <entry>
    <fullUrl value="urn:uuid:c5f43bfb-68c8-4664-9d5a-876c216230a4"/>
    <resource>
      <Observation>
        <meta>
          <profile value="http://nightingaleproject.github.io/fhirDeathRecord/StructureDefinition/sdr-causeOfDeath-AutopsyResultsAvailable"/>
        </meta>
        <status value="final"/>
        <code>
          <coding>
            <system value="http://loinc.org"/>
            <code value="69436-4"/>
            <display value="Autopsy results available"/>
          </coding>
        </code>
        <subject>
          <reference value="urn:uuid:10437797-9efc-4dce-85f2-6913f058981a"/>
        </subject>
        <valueBoolean value="false"/>
      </Observation>
    </resource>
  </entry>
  <entry>
    <fullUrl value="urn:uuid:2659395a-11e9-4284-993f-d9d2b297ec65"/>
    <resource>
      <Observation>
        <meta>
          <profile value="http://nightingaleproject.github.io/fhirDeathRecord/StructureDefinition/sdr-causeOfDeath-DatePronouncedDead"/>
        </meta>
        <status value="final"/>
        <code>
          <coding>
            <system value="http://loinc.org"/>
            <code value="80616-6"/>
            <display value="Date and time pronounced dead"/>
          </coding>
        </code>
        <subject>
          <reference value="urn:uuid:10437797-9efc-4dce-85f2-6913f058981a"/>
        </subject>
        <valueDateTime value="2018-04-24T00:00:00+00:00"/>
      </Observation>
    </resource>
  </entry>
  <entry>
    <fullUrl value="urn:uuid:fb85337b-0f33-4b2f-bedf-19b0c495e520"/>
    <resource>
      <Observation>
        <meta>
          <profile value="http://nightingaleproject.github.io/fhirDeathRecord/StructureDefinition/sdr-causeOfDeath-DeathFromWorkInjury"/>
        </meta>
        <status value="final"/>
        <code>
          <coding>
            <system value="http://loinc.org"/>
            <code value="69444-8"/>
            <display value="Did death result from injury at work"/>
          </coding>
        </code>
        <subject>
          <reference value="urn:uuid:10437797-9efc-4dce-85f2-6913f058981a"/>
        </subject>
        <valueBoolean value="false"/>
      </Observation>
    </resource>
  </entry>
  <entry>
    <fullUrl value="urn:uuid:c6cff625-bd27-44ca-a0b4-577e443f2a3a"/>
    <resource>
      <Observation>
        <meta>
          <profile value="http://nightingaleproject.github.io/fhirDeathRecord/StructureDefinition/sdr-causeOfDeath-DeathFromTransportInjury"/>
        </meta>
        <status value="final"/>
        <code>
          <coding>
            <system value="http://loinc.org"/>
            <code value="69448-9"/>
            <display value="Injury leading to death associated with transportation event"/>
          </coding>
        </code>
        <subject>
          <reference value="urn:uuid:10437797-9efc-4dce-85f2-6913f058981a"/>
        </subject>
        <valueCodeableConcept>
          <coding>
            <system value="http://hl7.org/fhir/v3/NullFlavor"/>
            <code value="OTH"/>
            <display value="Other"/>
          </coding>
        </valueCodeableConcept>
      </Observation>
    </resource>
  </entry>
  <entry>
    <fullUrl value="urn:uuid:eb0f3723-a7ed-4752-aa60-2ce498e65833"/>
    <resource>
      <Observation>
        <meta>
          <profile value="http://nightingaleproject.github.io/fhirDeathRecord/StructureDefinition/sdr-causeOfDeath-DetailsOfInjury"/>
        </meta>
        <extension url="http://nightingaleproject.github.io/fhirDeathRecord/StructureDefinition/sdr-causeOfDeath-PlaceOfInjury-extension">
          <valueString value="Example details of injury"/>
        </extension>
        <extension url="http://nightingaleproject.github.io/fhirDeathRecord/StructureDefinition/shr-core-PostalAddress-extension">
          <valueAddress>
            <type value="postal"/>
            <line value="7 Example Street"/>
            <line value="Bedford Massachusetts 01730"/>
            <city value="Bedford"/>
            <state value="Massachusetts"/>
            <postalCode value="01730"/>
            <country value="United States"/>
          </valueAddress>
        </extension>
        <status value="final"/>
        <code>
          <coding>
            <system value="http://loinc.org"/>
            <code value="11374-6"/>
            <display value="Injury incident description"/>
          </coding>
        </code>
        <subject>
          <reference value="urn:uuid:10437797-9efc-4dce-85f2-6913f058981a"/>
        </subject>
        <effectiveDateTime value="2018-04-19T15:43:00+00:00"/>
        <valueString value="Example details of injury"/>
      </Observation>
    </resource>
  </entry>
  <entry>
    <fullUrl value="urn:uuid:78b08b25-a207-498f-b80c-aa22b42187a6"/>
    <resource>
      <Observation>
        <meta>
          <profile value="http://nightingaleproject.github.io/fhirDeathRecord/StructureDefinition/sdr-causeOfDeath-MannerOfDeath"/>
        </meta>
        <status value="final"/>
        <code>
          <coding>
            <system value="http://loinc.org"/>
            <code value="69449-7"/>
            <display value="Manner of death"/>
          </coding>
        </code>
        <subject>
          <reference value="urn:uuid:10437797-9efc-4dce-85f2-6913f058981a"/>
        </subject>
        <valueCodeableConcept>
          <coding>
            <system value="http://snomed.info/sct"/>
            <code value="7878000"/>
            <display value="Accident"/>
          </coding>
        </valueCodeableConcept>
      </Observation>
    </resource>
  </entry>
  <entry>
    <fullUrl value="urn:uuid:3de8839e-0fcf-4712-96c8-4c5431d4dc01"/>
    <resource>
      <Observation>
        <meta>
          <profile value="http://nightingaleproject.github.io/fhirDeathRecord/StructureDefinition/sdr-causeOfDeath-MedicalExaminerContacted"/>
        </meta>
        <status value="final"/>
        <code>
          <coding>
            <system value="http://loinc.org"/>
            <code value="74497-9"/>
            <display value="Medical examiner or coroner was contacted"/>
          </coding>
        </code>
        <subject>
          <reference value="urn:uuid:10437797-9efc-4dce-85f2-6913f058981a"/>
        </subject>
        <valueBoolean value="false"/>
      </Observation>
    </resource>
  </entry>
  <entry>
    <fullUrl value="urn:uuid:ae7e052b-2a10-4ac6-9682-f6a4d350da5e"/>
    <resource>
      <Observation>
        <meta>
          <profile value="http://nightingaleproject.github.io/fhirDeathRecord/StructureDefinition/sdr-causeOfDeath-TimingOfRecentPregnancyInRelationToDeath"/>
        </meta>
        <status value="final"/>
        <code>
          <coding>
            <system value="http://loinc.org"/>
            <code value="69442-2"/>
            <display value="Timing of recent pregnancy in relation to death"/>
          </coding>
        </code>
        <subject>
          <reference value="urn:uuid:10437797-9efc-4dce-85f2-6913f058981a"/>
        </subject>
        <valueCodeableConcept>
          <coding>
            <code value="PHC1260"/>
            <display value="Not pregnant within past year"/>
          </coding>
        </valueCodeableConcept>
      </Observation>
    </resource>
  </entry>
  <entry>
    <fullUrl value="urn:uuid:fce13ff7-b1ae-448f-a197-23a3507e2aee"/>
    <resource>
      <Observation>
        <meta>
          <profile value="http://nightingaleproject.github.io/fhirDeathRecord/StructureDefinition/sdr-causeOfDeath-TobaccoUseContributedToDeath"/>
        </meta>
        <status value="final"/>
        <code>
          <coding>
            <system value="http://loinc.org"/>
            <code value="69443-0"/>
            <display value="Did tobacco use contribute to death"/>
          </coding>
        </code>
        <subject>
          <reference value="urn:uuid:10437797-9efc-4dce-85f2-6913f058981a"/>
        </subject>
        <valueCodeableConcept>
          <coding>
            <system value="http://snomed.info/sct"/>
            <code value="373067005"/>
            <display value="No"/>
          </coding>
        </valueCodeableConcept>
      </Observation>
    </resource>
  </entry>
</Bundle>
