<?xml version="1.0" encoding="utf-8"?>
<Bundle xmlns="http://hl7.org/fhir">
  <id value="2"/>
  <type value="document"/>
  <entry>
    <fullUrl value="urn:uuid:2a28f851-dddf-4d75-b8cf-29b6de357534"/>
    <resource>
      <Composition>
        <meta>
          <profile value="http://nightingaleproject.github.io/fhirDeathRecord/StructureDefinition/sdr-deathRecord-DeathRecordContents"/>
        </meta>
        <status value="final"/>
        <type>
          <coding>
            <system value="http://loinc.org"/>
            <code value="64297-5"/>
            <display value="Death certificate"/>
          </coding>
        </type>
        <subject>
          <reference value="urn:uuid:1bb99300-9e8a-4686-b36b-601fb9362ff7"/>
        </subject>
        <date value="2018-05-10"/>
        <author>
          <reference value="urn:uuid:bc95a69a-20c2-4423-b100-a041831b4e15"/>
        </author>
        <title value="Record of Death"/>
        <section>
          <code>
            <coding>
              <system value="http://loinc.org"/>
              <code value="69453-9"/>
              <display value="Cause of death"/>
            </coding>
          </code>
          <entry>
            <reference value="urn:uuid:1ca68dc6-5d36-4027-8b58-4e07237868a5"/>
          </entry>
          <entry>
            <reference value="urn:uuid:43aeb157-ae65-41c9-926d-0ba8e0417478"/>
          </entry>
          <entry>
            <reference value="urn:uuid:583fab69-308c-4c98-bde0-0aa7272f4a1c"/>
          </entry>
          <entry>
            <reference value="urn:uuid:b95170c9-daf4-4d6d-90b6-2f5a5841597a"/>
          </entry>
          <entry>
            <reference value="urn:uuid:eaa1a09f-226b-4c1e-871e-b6ab8613772a"/>
          </entry>
          <entry>
            <reference value="urn:uuid:8deb8812-b208-497a-8aa1-19460da5669b"/>
          </entry>
          <entry>
            <reference value="urn:uuid:d169677d-6723-45c2-b17b-eb2675671dc6"/>
          </entry>
          <entry>
            <reference value="urn:uuid:85c0b496-324a-4ad4-a769-e181b4df5259"/>
          </entry>
          <entry>
            <reference value="urn:uuid:f2763ed5-a61f-405e-accd-845c15ee62d5"/>
          </entry>
          <entry>
            <reference value="urn:uuid:c7f1ed49-9c69-4a3b-b887-4860da657ee0"/>
          </entry>
          <entry>
            <reference value="urn:uuid:f34e44d6-0d9b-491b-9b61-634e5aa09b36"/>
          </entry>
          <entry>
            <reference value="urn:uuid:eebd4df2-d514-497e-af62-990c49af87fc"/>
          </entry>
          <entry>
            <reference value="urn:uuid:eb1dd63e-a988-497b-9dd9-9f4a9c168d78"/>
          </entry>
          <entry>
            <reference value="urn:uuid:86d28b98-8054-40d2-b103-e5d3e955d8fe"/>
          </entry>
        </section>
      </Composition>
    </resource>
  </entry>
  <entry>
    <fullUrl value="urn:uuid:1bb99300-9e8a-4686-b36b-601fb9362ff7"/>
    <resource>
      <Patient>
        <meta>
          <profile value="http://nightingaleproject.github.io/fhirDeathRecord/StructureDefinition/sdr-decedent-Decedent"/>
          <profile value="http://hl7.org/fhir/us/core/StructureDefinition/us-core-patient"/>
        </meta>
        <extension url="http://hl7.org/fhir/us/core/StructureDefinition/us-core-race">
          <extension url="ombCategory">
            <valueCoding>
              <code value="2106-3"/>
            </valueCoding>
          </extension>
          <extension url="ombCategory">
            <valueCoding>
              <code value="2076-8"/>
            </valueCoding>
          </extension>
          <extension url="ombCategory">
            <valueCoding>
              <code value="2028-5"/>
            </valueCoding>
          </extension>
          <extension url="ombCategory">
            <valueCoding>
              <code value="1002-5"/>
            </valueCoding>
          </extension>
          <extension url="ombCategory">
            <valueCoding>
              <code value="2054-5"/>
            </valueCoding>
          </extension>
          <extension url="text">
            <valueString value="White"/>
          </extension>
          <extension url="text">
            <valueString value="Native Hawaiian or Other Pacific Islander"/>
          </extension>
          <extension url="text">
            <valueString value="Asian"/>
          </extension>
          <extension url="text">
            <valueString value="American Indian or Alaskan Native"/>
          </extension>
          <extension url="text">
            <valueString value="Black or African American"/>
          </extension>
        </extension>
        <extension url="http://hl7.org/fhir/us/core/StructureDefinition/us-core-ethnicity">
          <valueCodeableConcept>
            <coding>
              <system value="http://hl7.org/fhir/v3/Ethnicity"/>
              <code value="2186-5"/>
              <display value="Non Hispanic or Latino"/>
            </coding>
          </valueCodeableConcept>
        </extension>
        <extension url="http://hl7.org/fhir/us/core/StructureDefinition/us-core-birthsex">
          <valueCode value="M"/>
        </extension>
        <extension url="http://nightingaleproject.github.io/fhirDeathRecord/StructureDefinition/sdr-decedent-Age-extension">
          <valueUnsignedInt value="48"/>
        </extension>
        <extension url="http://nightingaleproject.github.io/fhirDeathRecord/StructureDefinition/sdr-decedent-Birthplace-extension">
          <valueAddress>
            <type value="postal"/>
            <city value="Boston"/>
            <state value="Massachusetts"/>
            <country value="United States"/>
          </valueAddress>
        </extension>
        <extension url="http://nightingaleproject.github.io/fhirDeathRecord/StructureDefinition/sdr-decedent-ServedInArmedForces-extension">
          <valueBoolean value="false"/>
        </extension>
        <extension url="http://nightingaleproject.github.io/fhirDeathRecord/StructureDefinition/sdr-decedent-MaritalStatusAtDeath-extension">
          <valueCodeableConcept>
            <coding>
              <system value="http://hl7.org/fhir/v3/MaritalStatus"/>
              <code value="S"/>
            </coding>
          </valueCodeableConcept>
        </extension>
        <extension url="http://nightingaleproject.github.io/fhirDeathRecord/StructureDefinition/sdr-decedent-PlaceOfDeath-extension">
          <extension url="http://nightingaleproject.github.io/fhirDeathRecord/StructureDefinition/shr-core-PostalAddress-extension">
            <valueAddress>
              <type value="postal"/>
              <line value="5 Example St."/>
              <city value="Boston"/>
              <state value="Massachusetts"/>
              <postalCode value="02101"/>
              <country value="United States"/>
            </valueAddress>
          </extension>
          <extension url="http://nightingaleproject.github.io/fhirDeathRecord/StructureDefinition/sdr-decedent-FacilityName-extension">
            <valueString value="Example Hospital"/>
          </extension>
          <extension url="http://nightingaleproject.github.io/fhirDeathRecord/StructureDefinition/sdr-decedent-PlaceOfDeathType-extension">
            <valueCodeableConcept>
              <coding>
                <code value="16983000"/>
              </coding>
            </valueCodeableConcept>
          </extension>
        </extension>
        <extension url="http://nightingaleproject.github.io/fhirDeathRecord/StructureDefinition/sdr-decedent-Disposition-extension">
          <extension url="http://nightingaleproject.github.io/fhirDeathRecord/StructureDefinition/sdr-decedent-DispositionType-extension">
            <valueCodeableConcept>
              <coding>
                <code value="449971000124106"/>
              </coding>
            </valueCodeableConcept>
          </extension>
          <extension url="http://nightingaleproject.github.io/fhirDeathRecord/StructureDefinition/sdr-decedent-DispositionFacility-extension">
            <extension url="http://nightingaleproject.github.io/fhirDeathRecord/StructureDefinition/sdr-decedent-FacilityName-extension">
              <valueString value="Example Cemetery"/>
            </extension>
            <extension url="http://nightingaleproject.github.io/fhirDeathRecord/StructureDefinition/shr-core-PostalAddress-extension">
              <valueAddress>
                <type value="postal"/>
                <city value="Boston"/>
                <state value="Massachusetts"/>
                <country value="United States"/>
              </valueAddress>
            </extension>
          </extension>
          <extension url="http://nightingaleproject.github.io/fhirDeathRecord/StructureDefinition/sdr-decedent-FuneralFacility-extension">
            <extension url="http://nightingaleproject.github.io/fhirDeathRecord/StructureDefinition/sdr-decedent-FacilityName-extension"/>
            <extension url="http://nightingaleproject.github.io/fhirDeathRecord/StructureDefinition/shr-core-PostalAddress-extension">
              <valueAddress>
                <type value="postal"/>
                <country value="United States"/>
              </valueAddress>
            </extension>
          </extension>
        </extension>
        <extension url="http://nightingaleproject.github.io/fhirDeathRecord/StructureDefinition/sdr-decedent-Education-extension">
          <valueCodeableConcept>
            <coding>
              <code value="PHC1454"/>
            </coding>
          </valueCodeableConcept>
        </extension>
        <extension url="http://nightingaleproject.github.io/fhirDeathRecord/StructureDefinition/sdr-decedent-Occupation-extension">
          <extension url="http://nightingaleproject.github.io/fhirDeathRecord/StructureDefinition/sdr-decedent-Job-extension"/>
          <extension url="http://nightingaleproject.github.io/fhirDeathRecord/StructureDefinition/sdr-decedent-Industry-extension">
            <valueString value="Example kind of business."/>
          </extension>
        </extension>
        <extension url="http://hl7.org/fhir/StructureDefinition/patient-mothersMaidenName">
          <valueString value="Maiden"/>
        </extension>
        <identifier>
          <system value="http://hl7.org/fhir/sid/us-ssn"/>
          <value value="111223333"/>
        </identifier>
        <name>
          <use value="official"/>
          <family value="Person"/>
          <given value="Example"/>
          <given value="Middle"/>
        </name>
        <gender value="male"/>
        <birthDate value="1970-04-24"/>
        <deceasedDateTime value="2018-04-24T00:00:00+00:00"/>
        <address>
          <line value="1 Example Street"/>
          <city value="Boston"/>
          <state value="Massachusetts"/>
          <postalCode value="02101"/>
        </address>
      </Patient>
    </resource>
  </entry>
  <entry>
    <fullUrl value="urn:uuid:bc95a69a-20c2-4423-b100-a041831b4e15"/>
    <resource>
      <Practitioner>
        <meta>
          <profile value="http://nightingaleproject.github.io/fhirDeathRecord/StructureDefinition/sdr-deathRecord-Certifier"/>
          <profile value="http://hl7.org/fhir/us/core/StructureDefinition/us-core-practitioner"/>
        </meta>
        <extension url="http://nightingaleproject.github.io/fhirDeathRecord/StructureDefinition/sdr-deathRecord-CertifierType-extension">
          <valueCodeableConcept>
            <coding>
              <system value="http://snomed.info/sct"/>
              <code value="434651000124107"/>
              <display value="Physician (Pronouncer and Certifier)"/>
            </coding>
          </valueCodeableConcept>
        </extension>
        <identifier>
          <use value="official"/>
          <system value="https://github.com/nightingaleproject/nightingale"/>
          <value value=""/>
        </identifier>
        <name>
          <family value="Doctor"/>
          <given value="Example"/>
          <given value="Middle"/>
        </name>
        <address>
          <line value="100 Example St."/>
          <city value="Bedford"/>
          <state value="Massachusetts"/>
          <postalCode value="01730"/>
        </address>
        <qualification>
          <code>
            <coding>
              <system value="http://hl7.org/fhir/v2/0360/2.7"/>
              <code value="MD"/>
              <display value="Doctor of Medicine"/>
            </coding>
          </code>
        </qualification>
      </Practitioner>
    </resource>
  </entry>
  <entry>
    <fullUrl value="urn:uuid:1ca68dc6-5d36-4027-8b58-4e07237868a5"/>
    <resource>
      <Condition>
        <meta>
          <profile value="http://nightingaleproject.github.io/fhirDeathRecord/StructureDefinition/sdr-causeOfDeath-CauseOfDeathCondition"/>
        </meta>
        <text>
          <status value="additional"/>
          <div xmlns="http://www.w3.org/1999/xhtml">Example Immediate COD</div>
        </text>
        <clinicalStatus value="active"/>
        <subject>
          <reference value="urn:uuid:1bb99300-9e8a-4686-b36b-601fb9362ff7"/>
        </subject>
        <onsetString value="minutes"/>
      </Condition>
    </resource>
  </entry>
  <entry>
    <fullUrl value="urn:uuid:43aeb157-ae65-41c9-926d-0ba8e0417478"/>
    <resource>
      <Condition>
        <meta>
          <profile value="http://nightingaleproject.github.io/fhirDeathRecord/StructureDefinition/sdr-causeOfDeath-CauseOfDeathCondition"/>
        </meta>
        <text>
          <status value="additional"/>
          <div xmlns="http://www.w3.org/1999/xhtml">Example Underlying COD 1</div>
        </text>
        <clinicalStatus value="active"/>
        <subject>
          <reference value="urn:uuid:1bb99300-9e8a-4686-b36b-601fb9362ff7"/>
        </subject>
        <onsetString value="2 hours"/>
      </Condition>
    </resource>
  </entry>
  <entry>
    <fullUrl value="urn:uuid:583fab69-308c-4c98-bde0-0aa7272f4a1c"/>
    <resource>
      <Condition>
        <meta>
          <profile value="http://nightingaleproject.github.io/fhirDeathRecord/StructureDefinition/sdr-causeOfDeath-CauseOfDeathCondition"/>
        </meta>
        <text>
          <status value="additional"/>
          <div xmlns="http://www.w3.org/1999/xhtml">Example Underlying COD 2</div>
        </text>
        <clinicalStatus value="active"/>
        <subject>
          <reference value="urn:uuid:1bb99300-9e8a-4686-b36b-601fb9362ff7"/>
        </subject>
        <onsetString value="6 months"/>
      </Condition>
    </resource>
  </entry>
  <entry>
    <fullUrl value="urn:uuid:b95170c9-daf4-4d6d-90b6-2f5a5841597a"/>
    <resource>
      <Observation>
        <meta>
          <profile value="http://nightingaleproject.github.io/fhirDeathRecord/StructureDefinition/sdr-causeOfDeath-ActualOrPresumedDateOfDeath"/>
        </meta>
        <status value="final"/>
        <code>
          <coding>
            <system value="http://loinc.org"/>
            <code value="81956-5"/>
            <display value="Date and time of death"/>
          </coding>
        </code>
        <subject>
          <reference value="urn:uuid:1bb99300-9e8a-4686-b36b-601fb9362ff7"/>
        </subject>
        <valueDateTime value="2018-04-24T00:00:00+00:00"/>
      </Observation>
    </resource>
  </entry>
  <entry>
    <fullUrl value="urn:uuid:eaa1a09f-226b-4c1e-871e-b6ab8613772a"/>
    <resource>
      <Observation>
        <meta>
          <profile value="http://nightingaleproject.github.io/fhirDeathRecord/StructureDefinition/sdr-causeOfDeath-AutopsyPerformed"/>
        </meta>
        <status value="final"/>
        <code>
          <coding>
            <system value="http://loinc.org"/>
            <code value="85699-7"/>
            <display value="Autopsy was performed"/>
          </coding>
        </code>
        <subject>
          <reference value="urn:uuid:1bb99300-9e8a-4686-b36b-601fb9362ff7"/>
        </subject>
        <valueBoolean value="false"/>
      </Observation>
    </resource>
  </entry>
  <entry>
    <fullUrl value="urn:uuid:8deb8812-b208-497a-8aa1-19460da5669b"/>
    <resource>
      <Observation>
        <meta>
          <profile value="http://nightingaleproject.github.io/fhirDeathRecord/StructureDefinition/sdr-causeOfDeath-AutopsyResultsAvailable"/>
        </meta>
        <status value="final"/>
        <code>
          <coding>
            <system value="http://loinc.org"/>
            <code value="69436-4"/>
            <display value="Autopsy results available"/>
          </coding>
        </code>
        <subject>
          <reference value="urn:uuid:1bb99300-9e8a-4686-b36b-601fb9362ff7"/>
        </subject>
        <valueBoolean value="false"/>
      </Observation>
    </resource>
  </entry>
  <entry>
    <fullUrl value="urn:uuid:d169677d-6723-45c2-b17b-eb2675671dc6"/>
    <resource>
      <Observation>
        <meta>
          <profile value="http://nightingaleproject.github.io/fhirDeathRecord/StructureDefinition/sdr-causeOfDeath-DatePronouncedDead"/>
        </meta>
        <status value="final"/>
        <code>
          <coding>
            <system value="http://loinc.org"/>
            <code value="80616-6"/>
            <display value="Date and time pronounced dead"/>
          </coding>
        </code>
        <subject>
          <reference value="urn:uuid:1bb99300-9e8a-4686-b36b-601fb9362ff7"/>
        </subject>
        <valueDateTime value="2018-04-24T00:00:00+00:00"/>
      </Observation>
    </resource>
  </entry>
  <entry>
    <fullUrl value="urn:uuid:85c0b496-324a-4ad4-a769-e181b4df5259"/>
    <resource>
      <Observation>
        <meta>
          <profile value="http://nightingaleproject.github.io/fhirDeathRecord/StructureDefinition/sdr-causeOfDeath-DeathFromWorkInjury"/>
        </meta>
        <status value="final"/>
        <code>
          <coding>
            <system value="http://loinc.org"/>
            <code value="69444-8"/>
            <display value="Did death result from injury at work"/>
          </coding>
        </code>
        <subject>
          <reference value="urn:uuid:1bb99300-9e8a-4686-b36b-601fb9362ff7"/>
        </subject>
        <valueBoolean value="false"/>
      </Observation>
    </resource>
  </entry>
  <entry>
    <fullUrl value="urn:uuid:f2763ed5-a61f-405e-accd-845c15ee62d5"/>
    <resource>
      <Observation>
        <meta>
          <profile value="http://nightingaleproject.github.io/fhirDeathRecord/StructureDefinition/sdr-causeOfDeath-DeathFromTransportInjury"/>
        </meta>
        <status value="final"/>
        <code>
          <coding>
            <system value="http://loinc.org"/>
            <code value="69448-9"/>
            <display value="Injury leading to death associated with transportation event"/>
          </coding>
        </code>
        <subject>
          <reference value="urn:uuid:1bb99300-9e8a-4686-b36b-601fb9362ff7"/>
        </subject>
        <valueCodeableConcept>
          <coding>
            <system value="http://hl7.org/fhir/v3/NullFlavor"/>
            <code value="OTH"/>
            <display value="Other"/>
          </coding>
        </valueCodeableConcept>
      </Observation>
    </resource>
  </entry>
  <entry>
    <fullUrl value="urn:uuid:c7f1ed49-9c69-4a3b-b887-4860da657ee0"/>
    <resource>
      <Observation>
        <meta>
          <profile value="http://nightingaleproject.github.io/fhirDeathRecord/StructureDefinition/sdr-causeOfDeath-DetailsOfInjury"/>
        </meta>
        <extension url="http://nightingaleproject.github.io/fhirDeathRecord/StructureDefinition/sdr-causeOfDeath-PlaceOfInjury-extension">
          <valueString value="Example details of injury"/>
        </extension>
        <extension url="http://nightingaleproject.github.io/fhirDeathRecord/StructureDefinition/shr-core-PostalAddress-extension">
          <valueAddress>
            <type value="postal"/>
            <line value="7 Example Street"/>
            <city value="Bedford"/>
            <state value="Massachusetts"/>
            <postalCode value="01730"/>
            <country value="United States"/>
          </valueAddress>
        </extension>
        <status value="final"/>
        <code>
          <coding>
            <system value="http://loinc.org"/>
            <code value="11374-6"/>
            <display value="Injury incident description"/>
          </coding>
        </code>
        <subject>
          <reference value="urn:uuid:1bb99300-9e8a-4686-b36b-601fb9362ff7"/>
        </subject>
        <effectiveDateTime value="2018-04-19T15:43:00+00:00"/>
        <valueString value="Example details of injury"/>
      </Observation>
    </resource>
  </entry>
  <entry>
    <fullUrl value="urn:uuid:f34e44d6-0d9b-491b-9b61-634e5aa09b36"/>
    <resource>
      <Observation>
        <meta>
          <profile value="http://nightingaleproject.github.io/fhirDeathRecord/StructureDefinition/sdr-causeOfDeath-MannerOfDeath"/>
        </meta>
        <status value="final"/>
        <code>
          <coding>
            <system value="http://loinc.org"/>
            <code value="69449-7"/>
            <display value="Manner of death"/>
          </coding>
        </code>
        <subject>
          <reference value="urn:uuid:1bb99300-9e8a-4686-b36b-601fb9362ff7"/>
        </subject>
        <valueCodeableConcept>
          <coding>
            <system value="http://snomed.info/sct"/>
            <code value="7878000"/>
            <display value="Accident"/>
          </coding>
        </valueCodeableConcept>
      </Observation>
    </resource>
  </entry>
  <entry>
    <fullUrl value="urn:uuid:eebd4df2-d514-497e-af62-990c49af87fc"/>
    <resource>
      <Observation>
        <meta>
          <profile value="http://nightingaleproject.github.io/fhirDeathRecord/StructureDefinition/sdr-causeOfDeath-MedicalExaminerContacted"/>
        </meta>
        <status value="final"/>
        <code>
          <coding>
            <system value="http://loinc.org"/>
            <code value="74497-9"/>
            <display value="Medical examiner or coroner was contacted"/>
          </coding>
        </code>
        <subject>
          <reference value="urn:uuid:1bb99300-9e8a-4686-b36b-601fb9362ff7"/>
        </subject>
        <valueBoolean value="false"/>
      </Observation>
    </resource>
  </entry>
  <entry>
    <fullUrl value="urn:uuid:eb1dd63e-a988-497b-9dd9-9f4a9c168d78"/>
    <resource>
      <Observation>
        <meta>
          <profile value="http://nightingaleproject.github.io/fhirDeathRecord/StructureDefinition/sdr-causeOfDeath-TimingOfRecentPregnancyInRelationToDeath"/>
        </meta>
        <status value="final"/>
        <code>
          <coding>
            <system value="http://loinc.org"/>
            <code value="69442-2"/>
            <display value="Timing of recent pregnancy in relation to death"/>
          </coding>
        </code>
        <subject>
          <reference value="urn:uuid:1bb99300-9e8a-4686-b36b-601fb9362ff7"/>
        </subject>
        <valueCodeableConcept>
          <coding>
            <code value="PHC1260"/>
            <display value="Not pregnant within past year"/>
          </coding>
        </valueCodeableConcept>
      </Observation>
    </resource>
  </entry>
  <entry>
    <fullUrl value="urn:uuid:86d28b98-8054-40d2-b103-e5d3e955d8fe"/>
    <resource>
      <Observation>
        <meta>
          <profile value="http://nightingaleproject.github.io/fhirDeathRecord/StructureDefinition/sdr-causeOfDeath-TobaccoUseContributedToDeath"/>
        </meta>
        <status value="final"/>
        <code>
          <coding>
            <system value="http://loinc.org"/>
            <code value="69443-0"/>
            <display value="Did tobacco use contribute to death"/>
          </coding>
        </code>
        <subject>
          <reference value="urn:uuid:1bb99300-9e8a-4686-b36b-601fb9362ff7"/>
        </subject>
        <valueCodeableConcept>
          <coding>
            <system value="http://snomed.info/sct"/>
            <code value="373067005"/>
            <display value="No"/>
          </coding>
        </valueCodeableConcept>
      </Observation>
    </resource>
  </entry>
</Bundle>
