<?xml version="1.0" encoding="utf-8"?>
<Bundle xmlns="http://hl7.org/fhir">
  <id value="2"/>
  <type value="document"/>
  <entry>
    <Composition>
      <meta>
        <profile value="http://nightingaleproject.github.io/fhirDeathRecord/StructureDefinition/sdr-deathRecord-DeathRecordContents"/>
      </meta>
      <status value="final"/>
      <type>
        <coding>
          <system value="http://loinc.org"/>
          <code value="64297-5"/>
          <display value="Death certificate"/>
        </coding>
      </type>
      <subject>
        <reference value="urn:uuid:da509f5a-46bf-45a6-bda3-814066cdd0fd"/>
      </subject>
      <date value="2018-05-01"/>
      <author>
        <reference value="urn:uuid:9e93d5b6-b71a-4125-ab95-d703581637b8"/>
      </author>
      <title value="Record of Death"/>
      <section>
        <code>
          <coding>
            <system value="http://loinc.org"/>
            <code value="69453-9"/>
            <display value="Cause of death"/>
          </coding>
        </code>
        <entry>
          <reference value="urn:uuid:331e1fce-0b88-4fef-b811-dd97be7dce28"/>
        </entry>
        <entry>
          <reference value="urn:uuid:f9107d83-7554-42f0-8405-691b14f1519d"/>
        </entry>
        <entry>
          <reference value="urn:uuid:fdfdefe0-5779-4cd5-9ede-30ce4cf81240"/>
        </entry>
        <entry>
          <reference value="urn:uuid:e6cae0e1-6321-453c-87ba-7575500e7fd9"/>
        </entry>
        <entry>
          <reference value="urn:uuid:044235ac-32f5-4b7f-a2b5-c2677ae2c265"/>
        </entry>
        <entry>
          <reference value="urn:uuid:91ba03d4-a42f-4513-bed4-4ee958c1b102"/>
        </entry>
        <entry>
          <reference value="urn:uuid:9ce73b65-be21-44ca-824f-a76117cb713a"/>
        </entry>
        <entry>
          <reference value="urn:uuid:e35c666e-f865-47e8-82cb-f77ddcc5de8c"/>
        </entry>
        <entry>
          <reference value="urn:uuid:7c391967-70c1-4b2d-8bdd-7834e56d665e"/>
        </entry>
        <entry>
          <reference value="urn:uuid:1de277ef-3b25-4975-b1c2-2b8998e89ba3"/>
        </entry>
        <entry>
          <reference value="urn:uuid:e5272983-ec3c-4e81-a4bf-3da9382550a3"/>
        </entry>
        <entry>
          <reference value="urn:uuid:e55fa14c-82a3-4766-9caa-ebd685ca0672"/>
        </entry>
        <entry>
          <reference value="urn:uuid:82fff2dd-1eac-4123-8c3f-7ba2b5482ac5"/>
        </entry>
        <entry>
          <reference value="urn:uuid:63286dab-a9c8-4e92-9903-d5a0ef0714e7"/>
        </entry>
      </section>
    </Composition>
  </entry>
  <entry>
    <fullUrl value="urn:uuid:da509f5a-46bf-45a6-bda3-814066cdd0fd"/>
    <resource>
      <Patient>
        <meta>
          <profile value="http://nightingaleproject.github.io/fhirDeathRecord/StructureDefinition/sdr-decedent-Decedent"/>
          <profile value="http://hl7.org/fhir/us/core/StructureDefinition/us-core-patient"/>
        </meta>
        <extension url="http://hl7.org/fhir/us/core/StructureDefinition/us-core-race">
          <extension url="ombCategory">
            <valueCoding>
              <code value="2106-3"/>
            </valueCoding>
          </extension>
          <extension url="ombCategory">
            <valueCoding>
              <code value="2076-8"/>
            </valueCoding>
          </extension>
          <extension url="ombCategory">
            <valueCoding>
              <code value="2028-5"/>
            </valueCoding>
          </extension>
          <extension url="ombCategory">
            <valueCoding>
              <code value="1002-5"/>
            </valueCoding>
          </extension>
          <extension url="ombCategory">
            <valueCoding>
              <code value="2054-5"/>
            </valueCoding>
          </extension>
          <extension url="text">
            <valueString value="White"/>
          </extension>
          <extension url="text">
            <valueString value="Native Hawaiian or Other Pacific Islander"/>
          </extension>
          <extension url="text">
            <valueString value="Asian"/>
          </extension>
          <extension url="text">
            <valueString value="American Indian or Alaskan Native"/>
          </extension>
          <extension url="text">
            <valueString value="Black or African American"/>
          </extension>
        </extension>
        <extension url="http://hl7.org/fhir/us/core/StructureDefinition/us-core-ethnicity">
          <valueCodeableConcept>
            <coding>
              <system value="http://hl7.org/fhir/v3/Ethnicity"/>
              <code value="2186-5"/>
              <display value="Non Hispanic or Latino"/>
            </coding>
          </valueCodeableConcept>
        </extension>
        <extension url="http://hl7.org/fhir/us/core/StructureDefinition/us-core-birthsex">
          <valueCode value="M"/>
        </extension>
        <extension url="http://nightingaleproject.github.io/fhirDeathRecord/StructureDefinition/sdr-decedent-Age-extension">
          <valueUnsignedInt value="48"/>
        </extension>
        <extension url="http://nightingaleproject.github.io/fhirDeathRecord/StructureDefinition/sdr-decedent-Birthplace-extension">
          <valueAddress>
            <type value="postal"/>
            <line value="Boston Massachusetts"/>
            <city value="Boston"/>
            <state value="Massachusetts"/>
            <country value="United States"/>
          </valueAddress>
        </extension>
        <extension url="http://nightingaleproject.github.io/fhirDeathRecord/StructureDefinition/sdr-decedent-ServedInArmedForces-extension">
          <valueBoolean value="false"/>
        </extension>
        <extension url="http://nightingaleproject.github.io/fhirDeathRecord/StructureDefinition/sdr-decedent-MaritalStatusAtDeath-extension">
          <valueCodeableConcept>
            <coding>
              <system value="http://hl7.org/fhir/v3/MaritalStatus"/>
              <code value="S"/>
            </coding>
          </valueCodeableConcept>
        </extension>
        <extension url="http://nightingaleproject.github.io/fhirDeathRecord/StructureDefinition/sdr-decedent-PlaceOfDeath-extension">
          <extension url="http://nightingaleproject.github.io/fhirDeathRecord/StructureDefinition/shr-core-PostalAddress-extension">
            <valueAddress>
              <type value="postal"/>
              <line value="5 Example St."/>
              <line value="Boston Massachusetts 02101"/>
              <city value="Boston"/>
              <state value="Massachusetts"/>
              <postalCode value="02101"/>
              <country value="United States"/>
            </valueAddress>
          </extension>
          <extension url="http://nightingaleproject.github.io/fhirDeathRecord/StructureDefinition/sdr-decedent-FacilityName-extension">
            <valueString value="Example Hospital"/>
          </extension>
          <extension url="http://nightingaleproject.github.io/fhirDeathRecord/StructureDefinition/sdr-decedent-PlaceOfDeathType-extension">
            <valueCodeableConcept>
              <coding>
                <code value="16983000"/>
              </coding>
            </valueCodeableConcept>
          </extension>
        </extension>
        <extension url="http://nightingaleproject.github.io/fhirDeathRecord/StructureDefinition/sdr-decedent-Disposition-extension">
          <extension url="http://nightingaleproject.github.io/fhirDeathRecord/StructureDefinition/sdr-decedent-DispositionType-extension">
            <valueCodeableConcept>
              <coding>
                <code value="449971000124106"/>
              </coding>
            </valueCodeableConcept>
          </extension>
          <extension url="http://nightingaleproject.github.io/fhirDeathRecord/StructureDefinition/sdr-decedent-DispositionFacility-extension">
            <extension url="http://nightingaleproject.github.io/fhirDeathRecord/StructureDefinition/sdr-decedent-FacilityName-extension">
              <valueString value="Example Cemetery"/>
            </extension>
            <extension url="http://nightingaleproject.github.io/fhirDeathRecord/StructureDefinition/shr-core-PostalAddress-extension">
              <valueAddress>
                <type value="postal"/>
                <line value="Boston Massachusetts"/>
                <city value="Boston"/>
                <state value="Massachusetts"/>
                <country value="United States"/>
              </valueAddress>
            </extension>
          </extension>
          <extension url="http://nightingaleproject.github.io/fhirDeathRecord/StructureDefinition/sdr-decedent-FuneralFacility-extension">
            <extension url="http://nightingaleproject.github.io/fhirDeathRecord/StructureDefinition/sdr-decedent-FacilityName-extension"/>
            <extension url="http://nightingaleproject.github.io/fhirDeathRecord/StructureDefinition/shr-core-PostalAddress-extension">
              <valueAddress>
                <type value="postal"/>
                <country value="United States"/>
              </valueAddress>
            </extension>
          </extension>
        </extension>
        <extension url="http://nightingaleproject.github.io/fhirDeathRecord/StructureDefinition/sdr-decedent-Education-extension">
          <valueCodeableConcept>
            <coding>
              <code value="PHC1454"/>
            </coding>
          </valueCodeableConcept>
        </extension>
        <extension url="http://nightingaleproject.github.io/fhirDeathRecord/StructureDefinition/sdr-decedent-Occupation-extension">
          <extension url="http://nightingaleproject.github.io/fhirDeathRecord/StructureDefinition/sdr-decedent-Job-extension"/>
          <extension url="http://nightingaleproject.github.io/fhirDeathRecord/StructureDefinition/sdr-decedent-Industry-extension">
            <valueString value="Example kind of business."/>
          </extension>
        </extension>
        <extension url="http://hl7.org/fhir/StructureDefinition/patient-mothersMaidenName">
          <valueString value="Maiden"/>
        </extension>
        <identifier>
          <system value="http://hl7.org/fhir/sid/us-ssn"/>
          <value value="111223333"/>
        </identifier>
        <name>
          <use value="official"/>
          <family value="Person"/>
          <given value="Example"/>
          <given value="Middle"/>
        </name>
        <gender value="male"/>
        <birthDate value="1970-04-24"/>
        <deceasedDateTime value="2018-04-24T00:00:00+00:00"/>
        <address>
          <line value="1 Example Street"/>
          <city value="Boston"/>
          <state value="Massachusetts"/>
          <postalCode value="02101"/>
        </address>
      </Patient>
    </resource>
  </entry>
  <entry>
    <fullUrl value="urn:uuid:9e93d5b6-b71a-4125-ab95-d703581637b8"/>
    <resource>
      <Practitioner>
        <meta>
          <profile value="http://nightingaleproject.github.io/fhirDeathRecord/StructureDefinition/sdr-deathRecord-Certifier"/>
          <profile value="http://hl7.org/fhir/us/core/StructureDefinition/us-core-practitioner"/>
        </meta>
        <extension url="http://nightingaleproject.github.io/fhirDeathRecord/StructureDefinition/sdr-deathRecord-CertifierType-extension">
          <valueCodeableConcept>
            <coding>
              <system value="http://snomed.info/sct"/>
              <code value="434651000124107"/>
              <display value="Physician (Pronouncer and Certifier)"/>
            </coding>
          </valueCodeableConcept>
        </extension>
        <identifier>
          <use value="official"/>
          <system value="https://github.com/nightingaleproject/nightingale"/>
          <value value=""/>
        </identifier>
        <name>
          <family value="Doctor"/>
          <given value="Example"/>
          <given value="Middle"/>
        </name>
        <address>
          <line value="100 Example St."/>
          <city value="Bedford"/>
          <state value="Massachusetts"/>
          <postalCode value="01730"/>
        </address>
        <qualification>
          <code>
            <coding>
              <system value="http://hl7.org/fhir/v2/0360/2.7"/>
              <code value="MD"/>
              <display value="Doctor of Medicine"/>
            </coding>
          </code>
        </qualification>
      </Practitioner>
    </resource>
  </entry>
  <entry>
    <fullUrl value="urn:uuid:331e1fce-0b88-4fef-b811-dd97be7dce28"/>
    <resource>
      <Condition>
        <meta>
          <profile value="http://nightingaleproject.github.io/fhirDeathRecord/StructureDefinition/sdr-causeOfDeath-CauseOfDeathCondition"/>
        </meta>
        <text>
          <status value="additional"/>
          <div xmlns="http://www.w3.org/1999/xhtml">Example Immediate COD</div>
        </text>
        <clinicalStatus value="active"/>
        <subject>
          <reference value="urn:uuid:da509f5a-46bf-45a6-bda3-814066cdd0fd"/>
        </subject>
        <onsetString value="minutes"/>
      </Condition>
    </resource>
  </entry>
  <entry>
    <fullUrl value="urn:uuid:f9107d83-7554-42f0-8405-691b14f1519d"/>
    <resource>
      <Condition>
        <meta>
          <profile value="http://nightingaleproject.github.io/fhirDeathRecord/StructureDefinition/sdr-causeOfDeath-CauseOfDeathCondition"/>
        </meta>
        <text>
          <status value="additional"/>
          <div xmlns="http://www.w3.org/1999/xhtml">Example Underlying COD 1</div>
        </text>
        <clinicalStatus value="active"/>
        <subject>
          <reference value="urn:uuid:da509f5a-46bf-45a6-bda3-814066cdd0fd"/>
        </subject>
        <onsetString value="2 hours"/>
      </Condition>
    </resource>
  </entry>
  <entry>
    <fullUrl value="urn:uuid:fdfdefe0-5779-4cd5-9ede-30ce4cf81240"/>
    <resource>
      <Condition>
        <meta>
          <profile value="http://nightingaleproject.github.io/fhirDeathRecord/StructureDefinition/sdr-causeOfDeath-CauseOfDeathCondition"/>
        </meta>
        <text>
          <status value="additional"/>
          <div xmlns="http://www.w3.org/1999/xhtml">Example Underlying COD 2</div>
        </text>
        <clinicalStatus value="active"/>
        <subject>
          <reference value="urn:uuid:da509f5a-46bf-45a6-bda3-814066cdd0fd"/>
        </subject>
        <onsetString value="6 months"/>
      </Condition>
    </resource>
  </entry>
  <entry>
    <fullUrl value="urn:uuid:e6cae0e1-6321-453c-87ba-7575500e7fd9"/>
    <resource>
      <Observation>
        <meta>
          <profile value="http://nightingaleproject.github.io/fhirDeathRecord/StructureDefinition/sdr-causeOfDeath-ActualOrPresumedDateOfDeath"/>
        </meta>
        <status value="final"/>
        <code>
          <coding>
            <system value="http://loinc.org"/>
            <code value="81956-5"/>
            <display value="Date and time of death"/>
          </coding>
        </code>
        <subject>
          <reference value="urn:uuid:da509f5a-46bf-45a6-bda3-814066cdd0fd"/>
        </subject>
        <valueDateTime value="2018-04-24T00:00:00+00:00"/>
      </Observation>
    </resource>
  </entry>
  <entry>
    <fullUrl value="urn:uuid:044235ac-32f5-4b7f-a2b5-c2677ae2c265"/>
    <resource>
      <Observation>
        <meta>
          <profile value="http://nightingaleproject.github.io/fhirDeathRecord/StructureDefinition/sdr-causeOfDeath-AutopsyPerformed"/>
        </meta>
        <status value="final"/>
        <code>
          <coding>
            <system value="http://loinc.org"/>
            <code value="85699-7"/>
            <display value="Autopsy was performed"/>
          </coding>
        </code>
        <subject>
          <reference value="urn:uuid:da509f5a-46bf-45a6-bda3-814066cdd0fd"/>
        </subject>
        <valueBoolean value="false"/>
      </Observation>
    </resource>
  </entry>
  <entry>
    <fullUrl value="urn:uuid:91ba03d4-a42f-4513-bed4-4ee958c1b102"/>
    <resource>
      <Observation>
        <meta>
          <profile value="http://nightingaleproject.github.io/fhirDeathRecord/StructureDefinition/sdr-causeOfDeath-AutopsyResultsAvailable"/>
        </meta>
        <status value="final"/>
        <code>
          <coding>
            <system value="http://loinc.org"/>
            <code value="69436-4"/>
            <display value="Autopsy results available"/>
          </coding>
        </code>
        <subject>
          <reference value="urn:uuid:da509f5a-46bf-45a6-bda3-814066cdd0fd"/>
        </subject>
        <valueBoolean value="false"/>
      </Observation>
    </resource>
  </entry>
  <entry>
    <fullUrl value="urn:uuid:9ce73b65-be21-44ca-824f-a76117cb713a"/>
    <resource>
      <Observation>
        <meta>
          <profile value="http://nightingaleproject.github.io/fhirDeathRecord/StructureDefinition/sdr-causeOfDeath-DatePronouncedDead"/>
        </meta>
        <status value="final"/>
        <code>
          <coding>
            <system value="http://loinc.org"/>
            <code value="80616-6"/>
            <display value="Date and time pronounced dead"/>
          </coding>
        </code>
        <subject>
          <reference value="urn:uuid:da509f5a-46bf-45a6-bda3-814066cdd0fd"/>
        </subject>
        <valueDateTime value="2018-04-24T00:00:00+00:00"/>
      </Observation>
    </resource>
  </entry>
  <entry>
    <fullUrl value="urn:uuid:e35c666e-f865-47e8-82cb-f77ddcc5de8c"/>
    <resource>
      <Observation>
        <meta>
          <profile value="http://nightingaleproject.github.io/fhirDeathRecord/StructureDefinition/sdr-causeOfDeath-DeathFromWorkInjury"/>
        </meta>
        <status value="final"/>
        <code>
          <coding>
            <system value="http://loinc.org"/>
            <code value="69444-8"/>
            <display value="Did death result from injury at work"/>
          </coding>
        </code>
        <subject>
          <reference value="urn:uuid:da509f5a-46bf-45a6-bda3-814066cdd0fd"/>
        </subject>
        <valueBoolean value="false"/>
      </Observation>
    </resource>
  </entry>
  <entry>
    <fullUrl value="urn:uuid:7c391967-70c1-4b2d-8bdd-7834e56d665e"/>
    <resource>
      <Observation>
        <meta>
          <profile value="http://nightingaleproject.github.io/fhirDeathRecord/StructureDefinition/sdr-causeOfDeath-DeathFromTransportInjury"/>
        </meta>
        <status value="final"/>
        <code>
          <coding>
            <system value="http://loinc.org"/>
            <code value="69448-9"/>
            <display value="Injury leading to death associated with transportation event"/>
          </coding>
        </code>
        <subject>
          <reference value="urn:uuid:da509f5a-46bf-45a6-bda3-814066cdd0fd"/>
        </subject>
        <valueCodeableConcept>
          <coding>
            <system value="http://hl7.org/fhir/v3/NullFlavor"/>
            <code value="OTH"/>
            <display value="Other"/>
          </coding>
        </valueCodeableConcept>
      </Observation>
    </resource>
  </entry>
  <entry>
    <fullUrl value="urn:uuid:1de277ef-3b25-4975-b1c2-2b8998e89ba3"/>
    <resource>
      <Observation>
        <meta>
          <profile value="http://nightingaleproject.github.io/fhirDeathRecord/StructureDefinition/sdr-causeOfDeath-DetailsOfInjury"/>
        </meta>
        <extension url="http://nightingaleproject.github.io/fhirDeathRecord/StructureDefinition/sdr-causeOfDeath-PlaceOfInjury-extension">
          <valueString value="Example details of injury"/>
        </extension>
        <extension url="http://nightingaleproject.github.io/fhirDeathRecord/StructureDefinition/shr-core-PostalAddress-extension">
          <valueAddress>
            <type value="postal"/>
            <line value="7 Example Street"/>
            <line value="Bedford Massachusetts 01730"/>
            <city value="Bedford"/>
            <state value="Massachusetts"/>
            <postalCode value="01730"/>
            <country value="United States"/>
          </valueAddress>
        </extension>
        <status value="final"/>
        <code>
          <coding>
            <system value="http://loinc.org"/>
            <code value="11374-6"/>
            <display value="Injury incident description"/>
          </coding>
        </code>
        <subject>
          <reference value="urn:uuid:da509f5a-46bf-45a6-bda3-814066cdd0fd"/>
        </subject>
        <effectiveDateTime value="2018-04-19T15:43:00+00:00"/>
        <valueString value="Example details of injury"/>
      </Observation>
    </resource>
  </entry>
  <entry>
    <fullUrl value="urn:uuid:e5272983-ec3c-4e81-a4bf-3da9382550a3"/>
    <resource>
      <Observation>
        <meta>
          <profile value="http://nightingaleproject.github.io/fhirDeathRecord/StructureDefinition/sdr-causeOfDeath-MannerOfDeath"/>
        </meta>
        <status value="final"/>
        <code>
          <coding>
            <system value="http://loinc.org"/>
            <code value="69449-7"/>
            <display value="Manner of death"/>
          </coding>
        </code>
        <subject>
          <reference value="urn:uuid:da509f5a-46bf-45a6-bda3-814066cdd0fd"/>
        </subject>
        <valueCodeableConcept>
          <coding>
            <system value="http://snomed.info/sct"/>
            <code value="7878000"/>
            <display value="Accident"/>
          </coding>
        </valueCodeableConcept>
      </Observation>
    </resource>
  </entry>
  <entry>
    <fullUrl value="urn:uuid:e55fa14c-82a3-4766-9caa-ebd685ca0672"/>
    <resource>
      <Observation>
        <meta>
          <profile value="http://nightingaleproject.github.io/fhirDeathRecord/StructureDefinition/sdr-causeOfDeath-MedicalExaminerContacted"/>
        </meta>
        <status value="final"/>
        <code>
          <coding>
            <system value="http://loinc.org"/>
            <code value="74497-9"/>
            <display value="Medical examiner or coroner was contacted"/>
          </coding>
        </code>
        <subject>
          <reference value="urn:uuid:da509f5a-46bf-45a6-bda3-814066cdd0fd"/>
        </subject>
        <valueBoolean value="false"/>
      </Observation>
    </resource>
  </entry>
  <entry>
    <fullUrl value="urn:uuid:82fff2dd-1eac-4123-8c3f-7ba2b5482ac5"/>
    <resource>
      <Observation>
        <meta>
          <profile value="http://nightingaleproject.github.io/fhirDeathRecord/StructureDefinition/sdr-causeOfDeath-TimingOfRecentPregnancyInRelationToDeath"/>
        </meta>
        <status value="final"/>
        <code>
          <coding>
            <system value="http://loinc.org"/>
            <code value="69442-2"/>
            <display value="Timing of recent pregnancy in relation to death"/>
          </coding>
        </code>
        <subject>
          <reference value="urn:uuid:da509f5a-46bf-45a6-bda3-814066cdd0fd"/>
        </subject>
        <valueCodeableConcept>
          <coding>
            <code value="PHC1260"/>
            <display value="Not pregnant within past year"/>
          </coding>
        </valueCodeableConcept>
      </Observation>
    </resource>
  </entry>
  <entry>
    <fullUrl value="urn:uuid:63286dab-a9c8-4e92-9903-d5a0ef0714e7"/>
    <resource>
      <Observation>
        <meta>
          <profile value="http://nightingaleproject.github.io/fhirDeathRecord/StructureDefinition/sdr-causeOfDeath-TobaccoUseContributedToDeath"/>
        </meta>
        <status value="final"/>
        <code>
          <coding>
            <system value="http://loinc.org"/>
            <code value="69443-0"/>
            <display value="Did tobacco use contribute to death"/>
          </coding>
        </code>
        <subject>
          <reference value="urn:uuid:da509f5a-46bf-45a6-bda3-814066cdd0fd"/>
        </subject>
        <valueCodeableConcept>
          <coding>
            <system value="http://snomed.info/sct"/>
            <code value="373067005"/>
            <display value="No"/>
          </coding>
        </valueCodeableConcept>
      </Observation>
    </resource>
  </entry>
</Bundle>
